#Aperture Area(sr) = 3.31471117220872e-08 #Extraction Rectangle:
# Box: 13:13:26.795,+36:35:26.84 ; 13:13:28.088,+36:35:24.07
#      13:13:28.450,+36:35:48.54 ; 13:13:27.157,+36:35:51.32
#   WAVELENGTH    |      FLUX       | FLUX_UNCERTAINTY |
#      real       |      real       |       real       |
#       um        |     MJy/sr      |      MJy/sr      |
         9.966622          18.79483           1.180198
         9.974653          16.48669           1.350125
         9.982685          18.64791           1.357929
         9.990716          20.69160           1.199902
         9.998747          18.78131           1.203423
         10.00678          16.72737           1.348658
         10.01481          20.47605           1.233644
         10.02284          18.60267           1.209587
         10.03087          19.80938           1.245108
         10.03889          22.08642           1.472926
         10.04692          17.53301           1.151668
         10.05495          18.86125           1.069304
         10.06298          20.49262           1.052213
         10.07101          20.79733           1.112674
         10.07904          17.95735           1.017399
         10.08706          17.79385           1.007033
         10.09509          19.63233           1.233585
         10.10312          20.80063          0.9923437
         10.11114          19.06667          0.8279995
         10.11917          17.70467           1.000983
         10.12720          19.20915           1.034263
         10.13522          19.89963          0.9235007
         10.14325          18.00111          0.9108747
         10.15127          19.92730           1.097053
         10.15930          18.70443           1.025209
         10.16732          18.79406          0.8617287
         10.17534          17.22016           1.025268
         10.18337          18.20613           1.041880
         10.19139          18.10935          0.9668751
         10.19942          19.20236          0.9776359
         10.20744          17.51011           1.098898
         10.21546          19.43355           1.038720
         10.22348          18.65190          0.9591624
         10.23150          19.81478           1.040034
         10.23953          19.62654           1.104636
         10.24755          19.93294           1.018162
         10.25557          20.24760           1.073498
         10.26359          19.58183           1.157625
         10.27161          19.94539           1.178065
         10.27963          19.41730           1.095721
         10.28765          19.86800           1.118063
         10.29567          19.22831           1.160743
         10.30369          19.30870           1.205679
         10.31171          19.97958           1.181229
         10.31973          19.73340           1.263062
         10.32774          18.49961           1.425623
         10.33576          16.86046           1.421894
         10.34378          16.25794           1.373582
         10.35180          15.92777           1.487793
         10.35982          17.70023           1.505246
         10.36783          20.05677           1.266627
         10.37585          18.51556           1.353643
         10.38387          19.13956           1.484586
         10.39188          20.15118           1.459778
         10.39990          19.52304           1.395422
         10.40791          20.43086           1.182887
         10.41593          17.69079           1.179326
         10.42394          17.07032           1.139617
         10.43196          21.05849           1.081059
         10.43997          19.75111           1.170443
         10.44798          19.32895           1.149971
         10.45600          19.44541           1.138930
         10.46401          20.12264           1.232521
         10.47202          20.15193           1.319797
         10.48004          20.85013           1.353612
         10.48805          21.09490           1.371447
         10.49606          20.05167           1.442966
         10.50407          20.01133           1.373482
         10.51208          22.09789           1.742101
         10.52010          21.10315           1.605308
         10.52811          22.84827           1.403851
         10.53612          25.36328           1.529173
         10.54413          26.97182           1.458211
         10.55214          25.57357           1.618283
         10.56015          22.48332           4.395514
         10.56043          24.96166          0.9534025
         10.56887          24.78112           1.147477
         10.57732          23.46649           1.069101
         10.58576          26.20715          0.9792080
         10.59420          25.14244           1.003629
         10.60265          25.86739          0.9324237
         10.61109          24.09202           1.025858
         10.61953          26.57485           1.003867
         10.62797          26.06074          0.9275076
         10.63642          25.62497          0.9813826
         10.64486          27.14209          0.9666544
         10.65330          24.26294          0.9360448
         10.66174          22.97429          0.9650437
         10.67018          22.18821          0.9863478
         10.67862          25.92883           1.092247
         10.68706          25.41278          0.9450419
         10.69550          23.54190          0.9194973
         10.70394          24.49397          0.9795506
         10.71238          24.71664           1.012978
         10.72082          24.80967          0.9302593
         10.72926          25.38194          0.9758349
         10.73769          23.23739           1.024709
         10.74613          26.84686          0.9786867
         10.75457          26.50806          0.9347506
         10.76301          27.47357          0.9181398
         10.77144          26.16713          0.9330761
         10.77988          25.96456          0.9353843
         10.78832          26.81617          0.9615901
         10.79675          26.55385          0.9971295
         10.80519          24.58737           1.142797
         10.81362          24.06788           1.070633
         10.82206          24.06356           1.044982
         10.83049          23.16714           1.092084
         10.83893          24.85975           1.179460
         10.84736          24.13774           1.289621
         10.85579          23.83029           1.397070
         10.86423          24.90588           1.481228
         10.87266          23.32559           1.217315
         10.88109          23.84575           1.317278
         10.88952          24.41123           1.565868
         10.89796          23.85850           1.583169
         10.90639          24.97876           1.732141
         10.91482          24.92918           1.663953
         10.92325          26.60034           1.546547
         10.93168          25.35503           2.159560
         10.94011          25.55442           1.890657
         10.94854          30.05482           1.847142
         10.95697          29.62422           2.009588
         10.96540          25.98646           1.435692
         10.97383          29.78503           1.267186
         10.98226          30.79573           1.230535
         10.99068          29.60148           1.490664
         10.99911          30.79699           1.183959
         11.00754          32.46931          0.8929264
         11.01597          35.70101           1.744072
         11.02439          37.53127           1.675978
         11.03282          38.41162           1.280730
         11.04125          36.70747           1.794726
         11.04967          34.97295           1.704091
         11.05810          36.39933           1.285048
         11.06652          38.11434           1.179018
         11.07495          36.12290           1.082564
         11.08337          33.01419           1.132343
         11.09180          30.91586           1.295351
         11.10022          34.39193           1.421413
         11.10865          34.13614           1.280742
         11.11707          33.99935           1.714960
         11.12117          34.87970           1.128059
         11.13008          37.07510           1.123302
         11.13898          38.18792           1.111158
         11.14789          39.38018           1.144864
         11.15679          43.49779           1.107408
         11.16570          46.88697           1.031260
         11.17460          49.02345          0.9840242
         11.18351          56.69626           1.048657
         11.19241          64.19824           1.028297
         11.20131          76.26907          0.9843895
         11.21022          87.37511           1.016898
         11.21912          104.0435          0.9753195
         11.22802          112.5604           1.016618
         11.23693          115.2447          0.9428533
         11.24583          114.7184          0.9762318
         11.25473          114.2662           1.019585
         11.26363          113.7934          0.9741841
         11.27253          115.8354          0.9673763
         11.28143          113.5812          0.9020680
         11.29033          112.6481          0.9603136
         11.29923          111.2313           1.002173
         11.30813          110.9805          0.8703923
         11.31703          108.9324          0.8978405
         11.32592          105.6375          0.9314192
         11.33482          100.2075          0.9033399
         11.34372          95.38465           1.016173
         11.35262          91.21793          0.9282092
         11.36151          86.70320          0.9487917
         11.37041          80.64172          0.9805004
         11.37931          81.25723          0.8911409
         11.38820          80.65772          0.8471315
         11.39710          78.65034          0.9548786
         11.40599          75.48011          0.9566545
         11.41489          73.92352          0.9100565
         11.42378          70.89870          0.9133157
         11.43268          70.53229          0.9853768
         11.44157          70.83337          0.9110457
         11.45046          66.58848          0.8449481
         11.45936          64.49912          0.8885126
         11.46825          64.46848          0.9207251
         11.47714          63.59950          0.9918117
         11.48603          62.48767          0.8916643
         11.49492          58.82507          0.8650064
         11.50381          58.20419           1.084539
         11.51270          55.16167           1.036179
         11.52160          57.04912           1.008448
         11.53048          53.64833          0.9611027
         11.53937          55.88260           1.068365
         11.54826          54.24173           1.079259
         11.55715          51.13435           1.023750
         11.56604          50.57164           1.102619
         11.57493          48.19898           1.190439
         11.58382          48.58207           1.246063
         11.59270          48.82432           1.123237
         11.60159          49.41126           1.125467
         11.61048          49.78207           1.178349
         11.61936          50.81596           1.244523
         11.62825          49.51963           1.333266
         11.63713          46.51288           1.351677
         11.64602          46.93231           1.412859
         11.65491          41.83889           1.521679
         11.66379          42.16128           1.277314
         11.67267          41.47415          0.9491396
         11.68156          40.17694           1.011462
         11.69044          42.32971           1.027727
         11.69932          42.04232           1.067906
         11.70821          41.90647           1.028891
         11.71709          40.73952           1.075475
         11.72597          41.92941           1.218628
         11.73485          39.87596           1.211812
         11.74373          40.42397           1.327344
         11.75261          39.08698           1.338479
         11.76149          37.56210           1.358966
         11.77037          38.07821           2.211931
         11.77501          38.18067           1.005805
         11.78443          36.78637           1.074133
         11.79385          37.28345           1.068053
         11.80327          37.96269           1.000858
         11.81269          37.91331          0.9006649
         11.82210          39.66188           1.048460
         11.83152          39.83224           1.010868
         11.84094          39.35331          0.9676144
         11.85036          39.89009          0.9021289
         11.85977          39.66358          0.9190689
         11.86919          41.03222          0.9776222
         11.87860          42.15155          0.8957999
         11.88802          41.98578          0.8003837
         11.89744          41.41186          0.7756696
         11.90685          42.37146          0.8779678
         11.91626          43.27930          0.8317101
         11.92568          44.55626          0.8531209
         11.93509          43.91681          0.7783135
         11.94450          44.21923          0.8790507
         11.95392          44.94604          0.8334011
         11.96333          46.18728          0.7385695
         11.97274          45.39539          0.7828975
         11.98215          47.30552          0.8314314
         11.99156          47.80278          0.8086262
         12.00097          46.64080          0.8244133
         12.01038          46.80908          0.8578829
         12.01979          47.87212          0.8827112
         12.02920          46.86218          0.8325279
         12.03861          47.06256          0.8325796
         12.04802          46.24972          0.7850590
         12.05743          46.73952          0.8563807
         12.06683          46.07037          0.9107347
         12.07624          43.80186          0.8042417
         12.08565          45.17257          0.7936434
         12.09505          44.99760          0.8569438
         12.10446          45.12964          0.8789737
         12.11386          45.01805          0.8793098
         12.12327          44.77588          0.8256606
         12.13268          44.92168          0.8398821
         12.14208          44.60102          0.9378660
         12.15148          43.42533          0.9855111
         12.16089          43.47606           1.024492
         12.17029          42.77593          0.9860671
         12.17969          43.36275           1.004522
         12.18909          43.97466           1.026670
         12.19850          42.88153          0.9828775
         12.20790          44.04922          0.9790321
         12.21730          42.64193          0.9927633
         12.22670          41.16417           1.089564
         12.23610          41.00722           1.102103
         12.24550          40.99888           1.115786
         12.25490          43.00641           1.121912
         12.26430          42.77253           1.150944
         12.27370          43.01112           1.303927
         12.28310          44.02560           1.140509
         12.29249          46.10310           1.124787
         12.30189          55.80445           1.457355
         12.31129          67.17027           1.355849
         12.32068          58.50243           1.582608
         12.33008          47.08548           1.292122
         12.33948          45.24181           1.013630
         12.34887          47.06873           1.041823
         12.35827          45.07643           1.067716
         12.36766          46.39841          0.9145293
         12.37706          46.65425           1.043224
         12.38645          48.77804           1.086420
         12.39584          47.52996          0.8765672
         12.40524          46.67709          0.8378813
         12.41463          47.63952          0.8340042
         12.42402          47.88560          0.9088888
         12.43341          46.98063           1.062987
         12.44280          48.44397           1.038310
         12.45219          50.69850           1.062864
         12.46159          51.95229           1.120677
         12.47097          50.02002           1.249375
         12.48036          51.11731           1.622074
         12.48975          50.15113           1.584201
         12.49905          50.89027           1.001434
         12.50904          50.76866          0.9430918
         12.51904          52.53601          0.9307985
         12.52903          54.07312          0.8542261
         12.53903          52.90633          0.8739509
         12.54902          55.14853          0.9001045
         12.55901          54.45107          0.8943918
         12.56901          54.60436          0.8069328
         12.57900          57.23218          0.8256499
         12.58899          54.99300          0.8969759
         12.59898          55.97269          0.8863676
         12.60898          59.05766          0.7942915
         12.61897          58.67342          0.8651205
         12.62896          59.68977          0.8181633
         12.63895          60.64645          0.7698875
         12.64894          61.35785          0.8331543
         12.65893          59.67944          0.8206131
         12.66891          59.22203          0.7574215
         12.67890          59.67809          0.8398188
         12.68889          62.78306          0.7337818
         12.69888          60.75537          0.7330927
         12.70887          61.14054          0.7706293
         12.71885          61.84027          0.8009836
         12.72884          62.72608          0.8541836
         12.73882          64.81489          0.8679564
         12.74881          64.42113          0.7619417
         12.75879          63.49445          0.7871349
         12.76878          63.63935          0.8087680
         12.77876          62.71552          0.8294578
         12.78874          61.99858          0.8663670
         12.79873          62.33197          0.8612228
         12.80871          63.16676          0.8412009
         12.81869          63.77345          0.8598589
         12.82867          77.92955          0.8175321
         12.83865          141.8944          0.8171881
         12.84863          204.9033          0.8657796
         12.85861          130.6915          0.8708954
         12.86859          68.92599          0.9066481
         12.87857          53.81316          0.8410817
         12.88855          48.67744          0.9238734
         12.89853          47.03471          0.9129437
         12.90851          46.68085          0.9139551
         12.91848          45.63390          0.8934854
         12.92846          43.80096          0.8955587
         12.93844          42.02355          0.9901775
         12.94841          41.61026           1.074377
         12.95839          42.26181           1.046966
         12.96836          42.03384           1.111161
         12.97834          39.80593           1.023333
         12.98831          39.92266           1.179752
         12.99829          40.77987           1.121103
         13.00826          38.92571           1.094267
         13.01823          38.45249           1.113412
         13.02820          38.44751           1.103434
         13.03818          40.95094           1.167212
         13.04815          38.62391           1.196633
         13.05812          38.49920           1.240481
         13.06809          38.61486           1.277625
         13.07806          38.29288           1.580487
         13.08803          40.62526           1.387329
         13.09800          39.19930           1.471494
         13.10797          39.14138           1.393816
         13.11793          40.71938           1.430852
         13.12790          37.33714           1.650534
         13.13787          36.44373           1.148091
         13.14783          38.82460           1.212769
         13.15780          38.23885           1.046773
         13.16777          37.74199           1.123848
         13.17773          38.68592           1.161316
         13.18770          38.28394           1.076934
         13.19766          35.64197           1.079967
         13.20763          36.66778           1.165807
         13.21759          36.70771           1.130795
         13.22755          37.83156           1.033391
         13.23752          34.31504           1.207653
         13.24748          34.82982           1.112942
         13.25744          34.02359           1.167485
         13.26740          36.95507          0.9732689
         13.27736          37.76457           1.172718
         13.28732          36.99158           1.446048
         13.29728          36.28837           1.427369
         13.30724          36.10880           1.590620
         13.31764          36.91505          0.7965767
         13.32828          36.56564          0.7487211
         13.33893          37.31706          0.7978649
         13.34957          37.69477          0.7350163
         13.36022          36.53389          0.7766367
         13.37086          37.57149          0.6919241
         13.38151          37.79594          0.6637149
         13.39215          36.59403          0.6458378
         13.40279          37.31662          0.7280571
         13.41343          36.75199          0.7174520
         13.42407          36.09683          0.6687186
         13.43471          36.08988          0.6689706
         13.44536          34.85289          0.6895642
         13.45599          36.20046          0.6939438
         13.46663          34.52296          0.6160053
         13.47727          35.40769          0.7059073
         13.48791          34.84548          0.7054994
         13.49855          34.32913          0.6321964
         13.50919          34.79787          0.6183501
         13.51982          36.04431          0.6329337
         13.53046          34.47819          0.5780246
         13.54110          36.76698          0.6195480
         13.55173          36.87549          0.6608081
         13.56237          35.92913          0.6624007
         13.57300          36.71442          0.6777729
         13.58363          36.62981          0.6682683
         13.59427          37.34950          0.6683902
         13.60490          36.15047          0.7169721
         13.61553          35.96788          0.7159108
         13.62617          36.37180          0.6461819
         13.63680          36.31700          0.6865942
         13.64743          34.97029          0.7327530
         13.65806          35.70967          0.7925316
         13.66869          35.55118          0.7805691
         13.67932          34.17408          0.7669907
         13.68995          33.64367          0.7756652
         13.70057          34.04419          0.8371174
         13.71120          34.91489          0.9181704
         13.72183          32.13017           1.048470
         13.73246          33.44789          0.8863496
         13.74308          33.39699          0.8856578
         13.75371          31.08643          0.9003311
         13.76434          31.21341          0.9765224
         13.77496          31.48365          0.8791336
         13.78559          31.04676          0.8294203
         13.79621          30.36257           1.047225
         13.80683          31.58810           1.056820
         13.81746          31.14776          0.9973505
         13.82808          31.82609           1.041741
         13.83870          31.99902           1.057133
         13.84932          31.25773          0.9388326
         13.85994          31.44988           1.112637
         13.87056          33.49900           1.281805
         13.88118          32.07451           1.247260
         13.89180          33.10957           1.138797
         13.90242          30.38468           1.364913
         13.91304          29.05390           1.407569
         13.92366          32.19847           1.237702
         13.93428          32.35785           1.391485
         13.94490          32.15519           1.107033
         13.95551          31.60809           1.573166
         13.96613          30.06199           1.737401
         13.97674          31.18204           1.633278
         13.98736          32.79739           1.529021
         13.99797          31.47111           1.513559
         14.00859          33.55207           1.614088
         14.01920          34.56839           1.698062
         14.02982          34.87066           2.102016
         14.04043          34.55604           1.976129
         14.05104          32.00747           1.999478
         14.06165          32.79394           1.849778
         14.07226          29.67811           2.047350
         14.08288          30.76847           2.154658
         14.09349          31.97551           2.244758
         14.10410          31.74381           1.497053
         14.11471          29.89407           1.397156
         14.12531          31.09434           1.551916
         14.13592          28.83667           1.410781
         14.14653          31.96720           1.288484
         14.15714          32.57190           1.469405
         14.16775          32.03110           1.260961
         14.17835          33.29037           2.162610
         14.18221          30.84543           1.228959
         14.19360          31.06388           1.007103
         14.20499          30.19188           1.086271
         14.21637          33.19900           1.076687
         14.22776          32.34870           1.039642
         14.23914          32.36245          0.9319044
         14.25053          33.07329          0.9316092
         14.26191          33.20650           1.005306
         14.27330          31.93379           1.071178
         14.28468          32.17471          0.9723971
         14.29607          30.73100          0.8391284
         14.30745          32.52493          0.7936421
         14.31883          32.79094          0.8589600
         14.33021          31.22052          0.8570633
         14.34159          33.56414          0.8451309
         14.35297          34.47852          0.7198834
         14.36435          33.89473          0.6693954
         14.37573          32.23429          0.6851643
         14.38711          30.80824          0.7385575
         14.39849          33.45667          0.8137233
         14.40987          34.39709          0.7685112
         14.42125          30.60269          0.6575887
         14.43262          29.38646          0.6023838
         14.44400          28.82283          0.7256266
         14.45537          30.55174          0.6981488
         14.46675          29.78779          0.6611044
         14.47812          28.17500          0.6331603
         14.48950          29.15494          0.5932336
         14.50087          29.83335          0.6651917
         14.51225          30.53726          0.6936126
         14.52362          29.51113          0.5930216
         14.53499          28.85909          0.6065037
         14.54636          27.11430          0.6834891
         14.55773          27.64381          0.7591470
         14.56910          28.57562          0.6936813
         14.58047          29.68089          0.6803221
         14.59184          29.38047          0.7379016
         14.60321          27.68698          0.7214537
         14.61458          27.98627          0.6983168
         14.62595          28.11034          0.8306252
         14.63731          27.02360          0.8270181
         14.64868          27.06078          0.7666088
         14.66005          28.69726          0.8201125
         14.67141          30.03666          0.8705345
         14.68278          28.67279          0.9868301
         14.69414          27.88785          0.9572357
         14.70551          27.27788           1.028077
         14.71687          27.82434          0.9701924
         14.72823          28.05228          0.8839821
         14.73959          28.16034          0.8248178
         14.75096          27.19542           1.044965
         14.76232          27.59544           1.087776
         14.77368          28.34791           1.165017
         14.78504          28.93809           1.061770
         14.79640          27.74027           1.025693
         14.80776          28.69880           1.121399
         14.81912          29.30576          0.9596810
         14.83047          29.15149           1.048168
         14.84183          28.72733           1.005132
         14.85319          27.97729           1.257652
         14.86454          27.97079           1.141885
         14.87590          29.23574           1.149830
         14.88726          28.28203           1.068861
         14.89861          26.84746           1.135369
         14.90997          28.13397           1.226382
         14.92132          27.95903           1.341171
         14.93267          26.97137           1.427021
         14.94403          27.56301           1.136235
         14.95538          27.41885           1.125854
         14.96673          28.37731           1.227572
         14.97808          27.19977           1.222654
         14.98943          28.16742           1.340302
         15.00078          27.09472          0.9145209
         15.01213          27.82130           1.357724
         15.02348          27.82964           1.329582
         15.03483          28.51660           1.447020
         15.04618          24.70838          0.9919689
         15.05752          28.38974           1.375187
         15.06887          26.55164           1.326623
         15.08022          26.63829           1.327717
         15.09156          28.07400          0.9626488
         15.10291          28.14549          0.9821997
         15.11425          26.98790           1.045956
         15.12560          28.25886          0.9029529
         15.13694          28.39276          0.9326887
         15.14828          28.21909           1.158866
         15.15202          26.50927           1.195402
         15.16426          27.42761           1.184720
         15.17650          27.10344           1.035035
         15.18874          26.80140           1.056233
         15.20098          25.17954           1.063466
         15.21322          27.18435           1.090579
         15.22546          29.07242          0.9354477
         15.23770          28.96765          0.8863226
         15.24993          26.19920          0.9578016
         15.26217          27.43330           1.035501
         15.27440          26.03370          0.9499142
         15.28664          28.59976          0.9764410
         15.29887          30.25761           1.011701
         15.31111          28.15467           1.002127
         15.32334          28.27530           1.146312
         15.33557          28.50841           1.083924
         15.34781          28.77931           1.169035
         15.36004          28.18616           1.165258
         15.37227          26.69293          0.9140194
         15.38450          27.86509           1.104710
         15.39673          28.88575           1.117457
         15.40896          30.39446           1.265828
         15.42119          29.49302           1.146505
         15.43342          28.60835           1.069901
         15.44564          29.92682           1.074994
         15.45787          29.41780           1.329938
         15.47010          28.08740           1.236740
         15.48232          27.57185          0.9714140
         15.49455          28.96800          0.9185484
         15.50677          28.20174          0.9088565
         15.51900          28.92465          0.8934397
         15.53122          29.95039          0.9176092
         15.54344          29.14932          0.8761159
         15.55566          28.94372          0.8288596
         15.56788          32.70673          0.7241047
         15.58011          43.41413          0.6699107
         15.59233          70.99630          0.7203045
         15.60455          78.38822          0.8254884
         15.61677          50.08297          0.7499513
         15.62898          33.78633          0.6162930
         15.64120          30.13836          0.6580454
         15.65342          30.00139          0.6960790
         15.66564          31.67957          0.8596296
         15.67785          30.30541          0.8098922
         15.69007          29.50638          0.7489581
         15.70228          30.35679          0.5973346
         15.71450          30.15443          0.7561699
         15.72671          29.96724          0.8106140
         15.73892          27.94165          0.8380621
         15.75114          30.44861          0.8607892
         15.76335          31.25796          0.8907241
         15.77556          30.71532          0.8815978
         15.78777          30.25173          0.9422289
         15.79998          29.86574          0.9821134
         15.81219          30.94006           1.041124
         15.82440          31.86485          0.9576312
         15.83661          31.02452           1.119818
         15.84882          31.50861           1.158164
         15.86102          30.86302           1.104369
         15.87323          30.64254           1.167467
         15.88544          31.39465           1.146451
         15.89764          32.87986           1.164745
         15.90985          32.34874           1.140132
         15.92205          30.13063           1.092427
         15.93426          31.14815           1.136814
         15.94646          33.45276           1.163520
         15.95866          32.94390           1.092546
         15.97086          31.28246           1.145610
         15.98307          31.30906           1.143120
         15.99527          31.72298           1.081728
         16.00747          32.38353           1.178654
         16.01967          31.64392           1.187560
         16.03187          33.38628           1.041279
         16.04406          34.22393           1.078695
         16.05626          29.98067           1.107366
         16.06846          31.41957           1.147998
         16.08066          31.27895           1.041349
         16.09285          31.12589           1.079404
         16.10505          32.51535           2.177492
         16.11724          32.37000           1.060619
         16.12944          31.94676           1.115292
         16.14163          32.01357           1.090122
         16.15382          30.93152           1.286919
         16.16602          32.42068           1.292829
         16.17821          33.77803           1.662559
         16.19040          33.99830           1.305773
         16.20259          33.89238           1.529827
         16.21478          33.76578           1.728910
         16.22697          33.48467           1.560171
         16.23916          33.52136           2.007077
         16.25135          34.02840           2.032899
         16.26354          35.01256           2.161713
         16.27572          34.05494           2.697230
         16.28791          32.95064           2.328282
         16.30010          35.93049           2.463448
         16.31228          35.50063           2.666076
         16.32447          37.42623           2.056060
         16.33665          36.69687           1.414740
         16.34884          38.52988           1.812212
         16.36102          38.39439           1.979938
         16.37320          40.54545           2.201431
         16.38539          39.02071           1.469554
         16.39757          39.89923           1.454471
         16.40975          42.70663           1.476863
         16.42193          43.78576           1.677614
         16.43411          45.87961           1.934672
         16.44629          48.66776           1.414731
         16.45847          49.13834           1.665339
         16.47064          49.19049           2.131387
         16.48282          52.21405           2.359334
         16.49500          53.45423           1.939214
         16.50384          50.56360           1.162076
         16.51706          47.57480           1.111248
         16.53027          48.78689          0.9778221
         16.54349          49.76291           1.087693
         16.55671          48.48864           1.218673
         16.56992          46.64325           1.165581
         16.58314          46.18582           1.163498
         16.59635          45.13512           1.137308
         16.60957          43.78483           1.152365
         16.62278          42.80182           1.189134
         16.63599          41.95277           1.193048
         16.64920          40.50730           1.214885
         16.66241          41.14423           1.218669
         16.67562          39.99869           1.229167
         16.68884          41.30945          0.9957253
         16.70204          40.45431           1.081093
         16.71525          40.72768           1.087216
         16.72846          43.36716          0.9425320
         16.74167          43.18462          0.8731059
         16.75487          42.47763          0.8220549
         16.76808          42.91974          0.8613144
         16.78128          43.79486          0.8106357
         16.79449          45.31933          0.8982387
         16.80769          47.77687          0.7958077
         16.82090          44.73058          0.8139065
         16.83410          43.42809          0.7541628
         16.84730          44.47344          0.7423920
         16.86050          43.07478          0.8175783
         16.87370          44.73500          0.9467525
         16.88690          44.53581          0.9991478
         16.90010          42.95781          0.9921140
         16.91330          43.00095           1.016523
         16.92650          42.84157           1.031536
         16.93970          44.12354           1.042530
         16.95289          44.33978           1.079673
         16.96609          42.68099           1.124086
         16.97928          44.53247           1.097124
         16.99248          45.65640           1.127780
         17.00567          45.89766           1.058332
         17.01887          46.37190          0.9986672
         17.03206          47.11675           1.164870
         17.04525          49.14680           1.136323
         17.05844          56.10353          0.9663147
         17.07163          84.22300          0.8745739
         17.08482          116.9714          0.9003863
         17.09801          92.11281          0.8521450
         17.11120          58.35876          0.8461269
         17.12439          48.29153          0.8484722
         17.13758          48.92974          0.8589893
         17.15076          48.56622          0.8088300
         17.16395          47.06228          0.7596052
         17.17714          46.90714          0.7517564
         17.19032          47.35017          0.8636293
         17.20350          48.54428          0.8508487
         17.21669          48.63987           1.001281
         17.22987          46.70361          0.9961340
         17.24305          47.81498           1.089834
         17.25623          44.57787           1.110487
         17.26941          45.64762           1.277685
         17.28259          46.55683           1.354897
         17.29577          45.53728           1.432803
         17.30895          46.34859           1.534013
         17.32213          46.51305           1.269472
         17.33531          46.13052           1.282602
         17.34849          45.90611           1.418451
         17.36166          46.10835           1.525699
         17.37484          44.11649           1.627810
         17.38801          45.10860           1.485736
         17.40119          48.62079           1.484287
         17.41436          49.16275           1.355993
         17.42753          47.95189           1.556235
         17.44071          45.01500          0.9369496
         17.45388          46.36928           1.395463
         17.46705          45.12133           1.298793
         17.48022          45.52598           1.334615
         17.49339          45.65791           1.291383
         17.50656          42.41042           1.226771
         17.51973          44.58205           1.194184
         17.53289          40.56077           1.195123
         17.54606          38.15018           1.327019
         17.55923          38.84693           1.317782
         17.57239          40.87605           1.596145
         17.58556          39.98415           3.277750
         17.59872          38.62859           1.359728
         17.61189          38.05788           1.510646
         17.62505          38.25219           1.778261
         17.63821          36.31205           1.794260
         17.65137          32.97062           1.812174
         17.66454          34.10412           2.360285
         17.67770          35.98242           2.495639
         17.69086          34.44130           2.576308
         17.70402          36.57301           2.064213
         17.71717          34.14023           2.649296
         17.73033          37.23282           2.878159
         17.74349          37.53704           1.760877
         17.75665          36.47727           1.698095
         17.76980          39.95622           1.314973
         17.78296          38.51319           1.371481
         17.79611          35.53128           1.436952
         17.80927          35.74988           1.827714
         17.82242          38.01726           1.825704
         17.83557          38.40710           1.771553
         17.84873          35.76023           1.629811
         17.86188          37.40565           1.548528
         17.87503          33.07151           1.668587
         17.88818          32.71444           1.660322
         17.90133          37.15590           1.654201
         17.91448          34.92123           1.893347
         17.92763          31.83973           1.928470
         17.94077          31.31408           2.589871
         17.94543          34.15993           1.230717
         17.95980          37.53980           1.102888
         17.97417          38.43564           1.234195
         17.98854          36.31556           1.197514
         18.00291          34.80558           1.264680
         18.01728          32.73392           1.373358
         18.03164          35.21469           1.345361
         18.04601          35.85746           1.304282
         18.06037          34.31652           1.279736
         18.07474          32.70721           1.294506
         18.08910          34.37780           1.567617
         18.10346          35.30814           1.643174
         18.11782          34.24148           1.496833
         18.13219          34.11104           1.469541
         18.14655          33.69425           1.249315
         18.16091          34.51647           1.189649
         18.17526          32.90227           1.202379
         18.18962          33.72799           1.292211
         18.20398          34.57338           1.141964
         18.21834          31.79905           1.130656
         18.23269          32.41331          0.9931287
         18.24705          33.55411          0.9443817
         18.26140          32.31664           1.044504
         18.27576          33.25068           1.151486
         18.29011          34.73300           1.345406
         18.30446          32.18452           1.246597
         18.31881          31.26951           1.178505
         18.33316          31.13917           1.314150
         18.34751          31.61573           1.212581
         18.36186          32.84541           1.332089
         18.37621          33.22200           1.411271
         18.39056          33.87045           1.569281
         18.40491          32.20615           1.423200
         18.41925          33.68293           1.289895
         18.43360          32.70972           1.172050
         18.44794          32.25089           1.141190
         18.46229          32.81042           1.095916
         18.47663          32.26099           1.203730
         18.49097          34.28606           1.137932
         18.50531          33.30582          0.9925375
         18.51966          33.30992          0.9886477
         18.53399          33.69158          0.9960892
         18.54833          33.49004          0.9530892
         18.56267          33.29392           1.160690
         18.57701          35.34483           1.327297
         18.59135          36.39605           1.214824
         18.60569          32.15283           1.423097
         18.62002          33.72383           1.631679
         18.63436          35.04638           1.438858
         18.64869          32.47371           1.432074
         18.66302          32.51271           1.556750
         18.67736          32.13742           1.564158
         18.69169          34.13625           1.720034
         18.70602          33.20641           1.568833
         18.72035          34.18980           1.536989
         18.73468          38.36725           1.297414
         18.74901          52.87786           1.354140
         18.76334          82.51199           1.322018
         18.77767          73.27862           1.356707
         18.79199          44.46500           1.278420
         18.80632          35.06124           1.175789
         18.82064          33.53977           1.070168
         18.83497          34.54297           1.175682
         18.84929          33.04245           1.161955
         18.86362          33.01833           1.359010
         18.87794          36.63168           1.711906
         18.89226          36.34219           1.767464
         18.90658          33.91250           1.907008
         18.92090          34.52626           1.490606
         18.93522          34.90883           1.599489
         18.94954          37.44322           1.864499
         18.96386          36.73042           2.314139
         18.97818          34.83529           2.241527
         18.99249          36.24097           2.238580
         19.00681          34.31516           2.108663
         19.02112          31.21378           1.870269
         19.03544          32.32232           1.692665
         19.04975          35.03324           1.720395
         19.06406          37.48235           1.727805
         19.07838          35.29786           1.729884
         19.09269          32.56655           1.601127
         19.10700          34.09805           1.522907
         19.12131          34.47900           1.547142
         19.13562          29.50655           1.561063
         19.14993          29.85717           1.715622
         19.16423          35.21918           2.062221
         19.17854          32.99506           2.181901
         19.19285          33.81390           2.273052
         19.20715          34.08861           2.117027
         19.22146          32.44620           2.465783
         19.23576          30.77869           2.396133
         19.25006          30.37285           3.007588
         19.26437          33.28529           3.344143
         19.27867          35.37027           3.766192
         19.29297          37.24971           4.918724
         19.30727          37.35419           3.149789
         19.32157          36.54242           3.117742
         19.33587          33.74950           2.388310
         19.35017          33.93199           3.398401
         19.36447          33.78216           3.080940
         19.37876          34.45317           2.924449
         19.39306          32.09874           2.787910
         19.40735          32.22509           3.264508
         19.42165          28.48280           2.169067
         19.43594          36.81726           2.180132
